Folder: AIS-Feedback/Datasets/benign_asm-binary

Note: Datasets/benign_asm-binary/104-bn_add.asm.txt
11111101000000010000000100010011
00000010000100010010011000100011
00000010100000010010010000100011
00000011000000010000010000010011
11111100101001000010111000100011
11111100101101000010110000100011
11111100110001000010101000100011
11111101100001000010011110000011
00000000110001111010011100000011
11111101010001000010011110000011
00000000110001111010011110000011
00001000111101110000111001100011
11111101100001000010011110000011
00000000110001111010011110000011
00000000000001111000111001100011
11111101100001000010011110000011
11111110111101000010011000100011
11111101010001000010011110000011
11111100111101000010110000100011
11111110110001000010011110000011
11111100111101000010101000100011
11111101010001000010010110000011
11111101100001000010010100000011
00000000000000000000000000010011
00000000101000000000011110110011
00000010000001111101101001100011
11111101100001000010011000000011
11111101010001000010010110000011
11111101110001000010010100000011
00000000000000000000000000010011
00000000101000000000011110110011
00000000000001111001011001100011
00000000000000000000011110010011
00001000110000000000000001101111
11111101110001000010011110000011
00000000000100000000011100010011
00000000111001111010011000100011
00000010110000000000000001101111
11111101010001000010011000000011
11111101100001000010010110000011
11111101110001000010010100000011
00000000000000000000000000010011
00000000101000000000011110110011
00000000000001111001011001100011
00000000000000000000011110010011
00000101110000000000000001101111
11111101110001000010011110000011
00000000000001111010011000100011
00000000000100000000011110010011
00000100110000000000000001101111
11111101100001000010011110000011
00000000110001111010011110000011
00000000000001111000101001100011
11111101110001000010011110000011
00000000000100000000011100010011
00000000111001111010011000100011
00000000110000000000000001101111
11111101110001000010011110000011
00000000000001111010011000100011
11111101010001000010011000000011
11111101100001000010010110000011
11111101110001000010010100000011
00000000000000000000000000010011
00000000101000000000011110110011
00000000000001111001011001100011
00000000000000000000011110010011
00000000100000000000000001101111
00000000000100000000011110010011
00000000111100000000010100110011
00000010110000010010000010000011
00000010100000010010010000000011
00000011000000010000000100010011
00000000000000001000000001100111
11111100000000010000000100010011
00000010000100010010111000100011
00000010100000010010110000100011
00000010100100010010101000100011
00000100000000010000010000010011
11111100101001000010011000100011
11111100101101000010010000100011
11111100110001000010001000100011
11111100100001000010011110000011
00000000010001111010011100000011
11111100010001000010011110000011
00000000010001111010011110000011
00000000111101110101111001100011
11111100100001000010011110000011
11111110111101000010000000100011
11111100010001000010011110000011
11111100111101000010010000100011
111111100000010000100111100000

Note: Datasets/benign_asm-binary/107-bn_div.asm.txt
11110101000000010000000100010011
00001010000100010010011000100011
00001010100000010010010000100011
00001011000000010000010000010011
11110110101001000010011000100011
11110110101101000010010000100011
11110110110001000010001000100011
11110110110101000010000000100011
11110100111001000010111000100011
11110110000001000010011110000011
00000000010001111010011110000011
00000010000001111000001001100011
11110110000001000010011110000011
00000000010001111010011100000011
00000000000100000000011110010011
00000000111101110001111001100011
11110110000001000010011110000011
00000000000001111010011110000011
00000000000001111010011110000011
00000000000001111001011001100011
00000000000000000000011110010011
01111001000000000000000001101111
11110110000001000010010110000011
11110110010001000010010100000011
00000000000000000000000000010011
00000000101000000000011110110011
00000100000001111101001001100011
11110110100001000010011110000011
00000010000001111000000001100011
11110110010001000010010110000011
11110110100001000010010100000011
00000000000000000000000000010011
00000000101000000000011110110011
00000000000001111001011001100011
00000000000000000000011110010011
01110101100000000000000001101111
11110110110001000010011110000011
00000000000001111000100001100011
00000000000000000000010110010011
11110110110001000010010100000011
00000000000000000000000000010011
00000000000100000000011110010011
01110011110000000000000001101111
11110101110001000010010100000011
00000000000000000000000000010011
11110101110001000010010100000011
00000000000000000000000000010011
11111100101001000010001000100011
11110101110001000010010100000011
00000000000000000000000000010011
11111100101001000010000000100011
11110101110001000010010100000011
00000000000000000000000000010011
11111010101001000010111000100011
11110110110001000010011110000011
00000000000001111001101001100011
11110101110001000010010100000011
00000000000000000000000000010011
11111110101001000010001000100011
00000000110000000000000001101111
11110110110001000010011110000011
11111110111101000010001000100011
11111011110001000010011110000011
01101100000001111000000001100011
11111110010001000010011110000011
01101010000001111000110001100011
11111100010001000010011110000011
00000000000001111010011000100011
11110110000001000010010100000011
00000000000000000000000000010011
00000000101000000000011100110011
01000001111101110101011110010011
00000001101101111101011110010011
00000000111101110000011100110011
00000001111101110111011100010011
01000000111101110000011110110011
00000000111100000000011100110011
00000010000000000000011110010011
01000000111001111000011110110011
11111010111101000010110000100011
11111011100001000010011000000011
11110110000001000010010110000011
11111011110001000010010100000011
00000000000000000000000000010011
11111011110001000010011110000011
00000000000001111010011000100011
11111011100001000010011110000011
00000010000001111000011110010011
11111010111101000010110000100011
11111011100001000010011000000011
111101100100010000100101100000

Note: Datasets/benign_asm-binary/1345-os_abstraction.asm.txt
11111111000000010000000100010011
00000000000100010010011000100011
00000000100000010010010000100011
00000001001000010010001000100011
00000001001100010010000000100011
00000001000000010000010000010011
00001011001000000000010100010011
00000000000000000000000000010011
00000000101000000000011110110011
00000000111100000000100100110011
01000001111101111101011110010011
00000000111100000000100110110011
00000001001000000000011100110011
00000001001100000000011110110011
00000000111000000000010100110011
00000000111100000000010110110011
00000000110000010010000010000011
00000000100000010010010000000011
00000000010000010010100100000011
00000000000000010010100110000011
00000001000000010000000100010011
00000000000000001000000001100111

File: 2392-tga.asm.txt
11111101000000010000000100010011
00000010000100010010011000100011
00000010100000010010010000100011
00000011000000010000010000010011
11111100101001000010111000100011
11111100101101000010110000100011
11111100110001000010101000100011
11111100110101000010100000100011
11111110000001000010010000100011
11111101000001000010011110000011
00000010000001111001001001100011
00010000000000010000011110110111
00001001100001111000011010010011
00000011000000000000011000010011
00010000000000010000011110110111
00000000000001111000010110010011
00010000000000010000011110110111
00001000010001111000010100010011
00000000000000000000000000010011
00010000000000010000011110110111
00001000110001111000010110010011
11111101110001000010010100000011
00000000000000000000000000010011
11111110101001000010010000100011
11111110100001000010011110000011
00000010000001111001001001100011
00000011100000000000011000010011
00010000000000010000011110110111
00001010010001111000010110010011
00010000000000010000011110110111
00001001000001111000010100010011
00000000000000000000000000010011
00000000000100000000011110010011
00011111000000000000000001101111
11111110100001000010010110000011
00000000000000000000010100010011
00000000000000000000000000010011
11111110100001000010010110000011
00000000000000000000010100010011
00000000000000000000000000010011
11111110100001000010010110000011
00000000001000000000010100010011
00000000000000000000000000010011
11111110100001000010010110000011
00000000000000000000010100010011
00000000000000000000000000010011
11111110100001000010010110000011
00000000000000000000010100010011
00000000000000000000000000010011
11111110100001000010010110000011
00000000000000000000010100010011
00000000000000000000000000010011
11111110100001000010010110000011
00000000000000000000010100010011
00000000000000000000000000010011
11111110100001000010010110000011
00000000000000000000010100010011
00000000000000000000000000010011
11111110100001000010010110000011
00000000000000000000010100010011
00000000000000000000000000010011
11111110100001000010010110000011
00000000000000000000010100010011
00000000000000000000000000010011
11111110100001000010010110000011
00000000000000000000010100010011
00000000000000000000000000010011
11111110100001000010010110000011
00000000000000000000010100010011
00000000000000000000000000010011
11111101100001000010011100000011
01000001111101110101011110010011
00000001100001111101011110010011
00000000111101110000011100110011
00001111111101110111011100010011
01000000111101110000011110110011
11111110100001000010010110000011
00000000111100000000010100110011
00000000000000000000000000010011
11111101100001000010011110000011
01000001111101111101011100010011
00001111111101110111011100010011
00000000111101110000011110110011
01000000100001111101011110010011
11111110100001000010010110000011
00000000111100000000010100110011
00000000000000000000000000010011
11111101010001000010011100000011
01000001111101110101011110010011
00000001100001111101011110010011
00000000111101110000011100110011
00001111111101110111011100010011
01000000111101110000011110110011
11111110100001000010010110000011
00000000111100000000010100110011
00000000000000000000000000010011
11111101010001000010011110000011
01000001111101111101011100010011
00001111111101110111011100010011
00000000111101110000011110110011
01000000100001111101011110010011
11111110100001000010010110000011
00000000111100000000010100110011
00000000000000000000000000010011
11111110100001000010010110000011
00000001100000000000010100010011
00000000000000000000000000010011
11111110100001000010010110000011
00000000000000000000010100010011
00000000000000000000000000010011
11111110000001000010011000100011
00000110000000000000000001101111
11111110110001000010011110000011
11111101000001000010011100000011
00000000111101110000011110110011
00000000000001111100011110000011
11111110111101000000001110100011
11111110110001000010011110000011
00000000001001111000011110010011
11111101000001000010011100000011
00000000111101110000011100110011
11111110110001000010011110000011
11111101000001000010011010000011
00000000111101101000011110110011
00000000000001110100011100000011
00000000111001111000000000100011
11111110110001000010011110000011
00000000001001111000011110010011
11111101000001000010011100000011
00000000111101110000011110110011
11111110011101000100011100000011
00000000111001111000000000100011
11111110110001000010011110000011
00000000001101111000011110010011
11111110111101000010011000100011
11111101100001000010011100000011
11111101010001000010011110000011
00000010111101110000011100110011
00000000111000000000011110110011
00000000000101111001011110010011
00000000111001111000011110110011
11111110110001000010011100000011
11111000111101110100010011100011
11111101100001000010011100000011
11111101010001000010011110000011
00000010111101110000011100110011
00000000111000000000011110110011
00000000000101111001011110010011
00000000111001111000011110110011
11111110100001000010011010000011
00000000000100000000011000010011
00000000111100000000010110110011
11111101000001000010010100000011
00000000000000000000000000010011
11111110100001000010010100000011
00000000000000000000000000010011
00000000000000000000011110010011
00000000111100000000010100110011
00000010110000010010000010000011
00000010100000010010010000000011
00000011000000010000000100010011
00000000000000001000000001100111